File: XRF_film/dataset/2.5-1-2.csv
Spectrum title              ,             2.5-1-1-2
Detector type ,             SDD (2016)
Voltage (kV)  ,              5
Current (uA)  ,              600
Primary filter              ,             Open
Helium used   ,             Yes
Live acquisition time (s)   ,              90
Dead time (%) ,              10
Channel       ,             counts
0             ,             0
3             ,             0
6             ,             0
9             ,             0
12            ,             0
15            ,             0
18            ,             0
21            ,             1
24            ,             0
27            ,             6
30            ,             18
33            ,             50
36            ,             89
39            ,             176
42            ,             245
45            ,             351
48            ,             411
51            ,             606
54            ,             1196
57            ,             1612
60            ,             1059
63            ,             585
66            ,             538
69            ,             464
72            ,             497
75            ,             460
78            ,             371
81            ,             327
84            ,             304
87            ,             260
90            ,             303
93            ,             270
96            ,             237
99            ,             239
102           ,             236
105           ,             254
108           ,             248
111           ,             255
114           ,             261
117           ,             263
120           ,             264
123           ,             263
126           ,             320
129           ,             303
132           ,             326
135           ,             380
138           ,             439
141           ,             526
144           ,             626
147           ,             748
150           ,             948
153           ,             974
156           ,             1024
159           ,             1195
162           ,             1475
165           ,             2057
168           ,             3760
171           ,             10128
174           ,             24852
177           ,             40118
180           ,             42702
183           ,             33153
186           ,             21498
189           ,             10453
192           ,             4970
195           ,             4453
198           ,             5505
201           ,             6765
204           ,             7972
207           ,             8190
210           ,             8015
213           ,             9217
216           ,             10861
219           ,             13743
222           ,             19108
225           ,             32868
228           ,             57553
231           ,             74972
234           ,             64298
237           ,             41283
240           ,             27108
243           ,             23689
246           ,             22498
249           ,             19837
252           ,             15853
255           ,             12441
258           ,             10172
261           ,             8633
264           ,             7592
267           ,             6837
270           ,             6267
273           ,             6051
276           ,             5941
279           ,             5966
282           ,             5876
285           ,             5874
288           ,             6047
291           ,             6414
294           ,             7176
297           ,             7307
300           ,             7279
303           ,             6800
306           ,             6973
309           ,             7150
312           ,             7248
315           ,             7512
318           ,             7663
321           ,             7983
324           ,             8250
327           ,             8482
330           ,             8594
333           ,             8911
336           ,             9094
339           ,             9073
342           ,             9138
345           ,             9371
348           ,             9643
351           ,             9631
354           ,             9846
357           ,             9956
360           ,             10246
363           ,             10284
366           ,             10520
369           ,             10588
372           ,             10985
375           ,             10615
378           ,             10369
381           ,             10431
384           ,             10311
387           ,             10381
390           ,             10281
393           ,             10281
396           ,             10149
399           ,             10187
402           ,             10033
405           ,             9950
408           ,             9938
411           ,             9797
414           ,             9690
417           ,             9456
420           ,             9261
423           ,             9122
426           ,             8946
429           ,             8785
432           ,             8507
435           ,             8440
438           ,             8123
441           ,             8077
444           ,             7789
447           ,             7815
450           ,             7483
453           ,             7192
456           ,             6879
459           ,             6899
462           ,             6503
465           ,             6224
468           ,             6079
471           ,             5676
474           ,             5180
477           ,             4799
480           ,             4279
483           ,             3914
486           ,             3258
489           ,             2588
492           ,             2032
495           ,             1394
498           ,             868
501           ,             474
504           ,             240
507           ,             100
510           ,             89
513           ,             69
516           ,             47
519           ,             66
522           ,             71
525           ,             58
528           ,             73
531           ,             65
534           ,             86
537           ,             80
540           ,             67
543           ,             70
546           ,             81
549           ,             85
552           ,             76
555           ,             68
558           ,             92
561           ,             89
564           ,             99
567           ,             85
570           ,             91
573           ,             89
576           ,             91
579           ,             72
582           ,             94
585           ,             80
588           ,             75
591           ,             91
594           ,             99
597           ,             94
600           ,             88
603           ,             87
606           ,             86
609           ,             97
612           ,             107
615           ,             91
618           ,             94
621           ,             100
624           ,             100
627           ,             71
630           ,             78
633           ,             80
636           ,             106
639           ,             105
642           ,             93
645           ,             83
648           ,             104
651           ,             85
654           ,             87
657           ,             63
660           ,             83
663           ,             97
666           ,             78
669           ,             70
672           ,             68
675           ,             68
678           ,             86
681           ,             83
684           ,             58
687           ,             57
690           ,             59
693           ,             70
696           ,             54
699           ,             65
702           ,             67
705           ,             60
708           ,             45
711           ,             40
714           ,             48
717           ,             49
720           ,             42
723           ,             44
726           ,             43
729           ,             37
732           ,             35
735           ,             42
738           ,             46
741           ,             25
744           ,             41
747           ,             24
750           ,             28
753           ,             23
756           ,             35
759           ,             28
762           ,             31
765           ,             32
768           ,             23
771           ,             28
774           ,             42
777           ,             27
780           ,             27
783           ,             31
786           ,             25
789           ,             13
792           ,             33
795           ,             23
798           ,             22
801           ,             20
804           ,             30
807           ,             23
810           ,             23
813           ,             25
816           ,             24
819           ,             27
822           ,             23
825           ,             26
828           ,             19
831           ,             27
834           ,             23
837           ,             23
840           ,             19
843           ,             17
846           ,             13
849           ,             17
852           ,             17
855           ,             19
858           ,             14
861           ,             15
864           ,             10
867           ,             14
870           ,             14
873           ,             19
876           ,             10
879           ,             11
882           ,             9
885           ,             11
888           ,             8
891           ,             6
894           ,             6
897           ,             5
900           ,             6
903           ,             9
906           ,             5
909           ,             6
912           ,             5
915           ,             8
918           ,             5
921           ,             5
924           ,             8
927           ,             5
930           ,             1
933           ,             4
936           ,             6
939           ,             1
942           ,             5
945           ,             0
948           ,             1
951           ,             1
954           ,             2
957           ,             1
960           ,             0
963           ,             0
966           ,             1
969           ,             1
972           ,             1
975           ,             1
978           ,             0
981           ,             0
984           ,             0
987           ,             0
990           ,             0
993           ,             1
996           ,             0
999           ,             0
1002          ,             0
1005          ,             0
1008          ,             0
1011          ,             0
1014          ,             0
1017          ,             1
1020          ,             0
1023          ,             0
1026          ,             0
1029          ,             0
1032          ,             0
1035          ,             0
1038          ,             0
1041          ,             0
1044          ,             0
1047          ,             1
1050          ,             0
1053          ,             0
1056          ,             0
1059          ,             0
1062          ,             0
1065          ,             0
1068          ,             0
1071          ,             0
1074          ,             0
1077          ,             0
1080          ,             0
1083          ,             0
1086          ,             0
1089          ,             0
1092          ,             0
1095          ,             0
1098          ,             0
1101          ,             0
1104          ,             0
1107          ,             0
1110          ,             0
1113          ,             0
1116          ,             0
1119          ,             0
1122          ,             0
1125          ,             1
1128          ,             0
1131          ,             0
1134          ,             0
1137          ,             1
1140          ,             0
1143          ,             0
1146          ,             0
1149          ,             0
1152          ,             0
1155          ,             0
1158          ,             0
1161          ,             0
1164          ,             1
1167          ,             0
1170          ,             0
1173          ,             0
1176          ,             0
1179          ,             0
1182          ,             0
1185          ,             0
1188          ,             0
1191          ,             0
1194          ,             0
1197          ,             0
1200          ,             0
1203          ,             0
1206          ,             0
1209          ,             0
1212          ,             0
1215          ,             0
1218          ,             0
1221          ,             0
1224          ,             0
1227          ,             0
1230          ,             0
1233          ,             0
1236          ,             0
1239          ,             0
1242          ,             0
1245          ,             0
1248          ,             0
1251          ,             0
1254          ,             0
1257          ,             0
1260          ,             0
1263          ,             0
1266          ,             0
1269          ,             0
1272          ,             0
1275          ,             0
1278          ,             0
1281          ,             0
1284          ,             0
1287          ,             0
1290          ,             0
1293          ,             0
1296          ,             0
1299          ,             0
1302          ,             0
1305          ,             0
1308          ,             0
1311          ,             0
1314          ,             0
1317          ,             0
1320          ,             0
1323          ,             0
1326          ,             0
1329          ,             0
1332          ,             0
1335          ,             0
1338          ,             0
1341          ,             0
1344          ,             0
1347          ,             0
1350          ,             0
1353          ,             0
1356          ,             0
1359          ,             0
1362          ,             0
1365          ,             0
1368          ,             0
1371          ,             0
1374          ,             0
1377          ,             0
1380          ,             0
1383          ,             0
1386          ,             0
1389          ,             0
1392          ,             0
1395          ,             0
1398          ,             0
1401          ,             0
1404          ,             0
1407          ,             0
1410          ,             0
1413          ,             0
1416          ,             0
1419          ,             0
1422          ,             0
1425          ,             0
1428          ,             0
1431          ,             0
1434          ,             0
1437          ,             0
1440          ,             0
1443          ,             0
1446          ,             0
1449          ,             0
1452          ,             0
1455          ,             0
1458          ,             0
1461          ,             0
1464          ,             0
1467          ,             0
1470          ,             0
1473          ,             0
1476          ,             0
1479          ,             0
1482          ,             0
1485          ,             0
1488          ,             0
1491          ,             0
1494          ,             0
1497          ,             0
1500          ,             0
1503          ,             0
1506          ,             0
1509          ,             0
1512          ,             0
1515          ,             0
1518          ,             0
1521          ,             0
1524          ,             0
1527          ,             0
1530          ,             0
1533          ,             0
1536          ,             0
1539          ,             0
1542          ,             0
1545          ,             0
1548          ,             0
1551          ,             0
1554          ,             0
1557          ,             0
1560          ,             0
1563          ,             0
1566          ,             0
1569          ,             0
1572          ,             0
1575          ,             0
1578          ,             0
1581          ,             0
1584          ,             0
1587          ,             0
1590          ,             0
1593          ,             0
1596          ,             0
1599          ,             0
1602          ,             0
1605          ,             0
1608          ,             0
1611          ,             0
1614          ,             0
1617          ,             0
1620          ,             0
1623          ,             0
1626          ,             0
1629          ,             0
1632          ,             0
1635          ,             0
1638          ,             0
1641          ,             0
1644          ,             0
1647          ,             0
1650          ,             0
1653          ,             0
1656          ,             0
1659          ,             0
1662          ,             0
1665          ,             0
1668          ,             0
1671          ,             0
1674          ,             0
1677          ,             0
1680          ,             0
1683          ,             0
1686          ,             0
1689          ,             0
1692          ,             0
1695          ,             0
1698          ,             0
1701          ,             0
1704          ,             0
1707          ,             0
1710          ,             0
1713          ,             0
1716          ,             0
1719          ,             0
1722          ,             0
1725          ,             0
1728          ,             0
1731          ,             0
1734          ,             0
1737          ,             0
1740          ,             0
1743          ,             0
1746          ,             0
1749          ,             0
1752          ,             0
1755          ,             0
1758          ,             0
1761          ,             0
1764          ,             0
1767          ,             0
1770          ,             0
1773          ,             0
1776          ,             0
1779          ,             0
1782          ,             0
1785          ,             0
1788          ,             0
1791          ,             0
1794          ,             0
1797          ,             0
1800          ,             0
1803          ,             0
1806          ,             0
1809          ,             0
1812          ,             0
1815          ,             0
1818          ,             0
1821          ,             0
1824          ,             0
1827          ,             0
1830          ,             0
1833          ,             0
1836          ,             0
1839          ,             0
1842          ,             0
1845          ,             0
1848          ,             0
1851          ,             0
1854          ,             0
1857          ,             0
1860          ,             0
1863          ,             0
1866          ,             0
1869          ,             0
1872          ,             0
1875          ,             0
1878          ,             0
1881          ,             0
1884          ,             0
1887          ,             0
1890          ,             0
1893          ,             0
1896          ,             0
1899          ,             0
1902          ,             0
1905          ,             0
1908          ,             0
1911          ,             0
1914          ,             0
1917          ,             0
1920          ,             0
1923          ,             0
1926          ,             0
1929          ,             0
1932          ,             0
1935          ,             0
1938          ,             0
1941          ,             0
1944          ,             0
1947          ,             0
1950          ,             0
1953          ,             0
1956          ,             0
1959          ,             0
1962          ,             0
1965          ,             0
1968          ,             0
1971          ,             0
1974          ,             0
1977          ,             0
1980          ,             0
1983          ,             0
1986          ,             0
1989          ,             0
1992          ,             0
1995          ,             0
1998          ,             0
2001          ,             0
2004          ,             0
2007          ,             0
2010          ,             0
2013          ,             0
2016          ,             0
2019          ,             0
2022          ,             0
2025          ,             0
2028          ,             0
2031          ,             0
2034          ,             0
2037          ,             0
2040          ,             0
2043          ,             0
2046          ,             0
2049          ,             0
2052          ,             0
2055          ,             0
2058          ,             0
2061          ,             0
2064          ,             0
2067          ,             0
2070          ,             0
2073          ,             0
2076          ,             0
2079          ,             0
2082          ,             0
2085          ,             0
2088          ,             0
2091          ,             0
2094          ,             0
2097          ,             0
2100          ,             0
2103          ,             0
2106          ,             0
2109          ,             0
2112          ,             0
2115          ,             0
2118          ,             0
2121          ,             0
2124          ,             0
2127          ,             0
2130          ,             0
2133          ,             0
2136          ,             0
2139          ,             0
2142          ,             0
2145          ,             0
2148          ,             0
2151          ,             0
2154          ,             0
2157          ,             0
2160          ,             0
2163          ,             0
2166          ,             0
2169          ,             0
2172          ,             0
2175          ,             0
2178          ,             0
2181          ,             0
2184          ,             0
2187          ,             0
2190          ,             0
2193          ,             0
2196          ,             0
2199          ,             0
2202          ,             0
2205          ,             0
2208          ,             0
2211          ,             0
2214          ,             0
2217          ,             0
2220          ,             0
2223          ,             0
2226          ,             0
2229          ,             0
2232          ,             0
2235          ,             0
2238          ,             0
2241          ,             0
2244          ,             0
2247          ,             0
2250          ,             0
2253          ,             0
2256          ,             0
2259          ,             0
2262          ,             0
2265          ,             0
2268          ,             0
2271          ,             0
2274          ,             0
2277          ,             0
2280          ,             0
2283          ,             0
2286          ,             0
2289          ,             0
2292          ,             0
2295          ,             0
2298          ,             0
2301          ,             0
2304          ,             0
2307          ,             0
2310          ,             0
2313          ,             0
2316          ,             0
2319          ,             0
2322          ,             0
2325          ,             0
2328          ,             0
2331          ,             0
2334          ,             0
2337          ,             0
2340          ,             0
2343          ,             0
2346          ,             0
2349          ,             0
2352          ,             0
2355          ,             0
2358          ,             0
2361          ,             0
2364          ,             0
2367          ,             0
2370          ,             0
2373          ,             0
2376          ,             0
2379          ,             0
2382          ,             0
2385          ,             0
2388          ,             0
2391          ,             0
2394          ,             0
2397          ,             0
2400          ,             0
2403          ,             0
2406          ,             0
2409          ,             0
2412          ,             0
2415          ,             0
2418          ,             0
2421          ,             0
2424          ,             0
2427          ,             0
2430          ,             0
2433          ,             0
2436          ,             0
2439          ,             0
2442          ,             0
2445          ,             0
2448          ,             0
2451          ,             0
2454          ,             0
2457          ,             0
2460          ,             0
2463          ,             0
2466          ,             0
2469          ,             0
2472          ,             0
2475          ,             0
2478          ,             0
2481          ,             0
2484          ,             0
2487          ,             0
2490          ,             0
2493          ,             0
2496          ,             0
2499          ,             0
2502          ,             0
2505          ,             0
2508          ,             0
2511          ,             0
2514          ,             0
2517          ,             0
2520          ,             0
2523          ,             0
2526          ,             0
2529          ,             0
2532          ,             0
2535          ,             0
2538          ,             0
2541          ,             0
2544          ,             0
2547          ,             0
2550          ,             0
2553          ,             0
2556          ,             0
2559          ,             0
2562          ,             0
2565          ,             0
2568          ,             0
2571          ,             0
2574          ,             0
2577          ,             0
2580          ,             0
2583          ,             0
2586          ,             0
2589          ,             0
2592          ,             0
2595          ,             0
2598          ,             0
2601          ,             0
2604          ,             0
2607          ,             0
2610          ,             0
2613          ,             0
2616          ,             0
2619          ,             0
2622          ,             0
2625          ,             0
2628          ,             0
2631          ,             0
2634          ,             0
2637          ,             0
2640          ,             0
2643          ,             0
2646          ,             0
2649          ,             0
2652          ,             0
2655          ,             0
2658          ,             0
2661          ,             0
2664          ,             0
2667          ,             0
2670          ,             0
2673          ,             0
2676          ,             0
2679          ,             0
2682          ,             0
2685          ,             0
2688          ,             0
2691          ,             0
2694          ,             0
2697          ,             0
2700          ,             0
2703          ,             0
2706          ,             0
2709          ,             0
2712          ,             0
2715          ,             0
2718          ,             0
2721          ,             0
2724          ,             0
2727          ,             0
2730          ,             0
2733          ,             0
2736          ,             0
2739          ,             0
2742          ,             0
2745          ,             0
2748          ,             0
2751          ,             0
2754          ,             0
2757          ,             0
2760          ,             0
2763          ,             0
2766          ,             0
2769          ,             0
2772          ,             0
2775          ,             0
2778          ,             0
2781          ,             0
2784          ,             0
2787          ,             0
2790          ,             0
2793          ,             0
2796          ,             0
2799          ,             0
2802          ,             0
2805          ,             0
2808          ,             0
2811          ,             0
2814          ,             0
2817          ,             0
2820          ,             0
2823          ,             0
2826          ,             0
2829          ,             0
2832          ,             0
2835          ,             0
2838          ,             0
2841          ,             0
2844          ,             0
2847          ,             0
2850          ,             0
2853          ,             0
2856          ,             0
2859          ,             0
2862          ,             0
2865          ,             0
2868          ,             0
2871          ,             0
2874          ,             0
2877          ,             0
2880          ,             0
2883          ,             0
2886          ,             0
2889          ,             0
2892          ,             0
2895          ,             0
2898          ,             0
2901          ,             0
2904          ,             0
2907          ,             0
2910          ,             0
2913          ,             0
2916          ,             0
2919          ,             0
2922          ,             0
2925          ,             0
2928          ,             0
2931          ,             0
2934          ,             0
2937          ,             0
2940          ,             0
2943          ,             0
2946          ,             0
2949          ,             0
2952          ,             0
2955          ,             0
2958          ,             0
2961          ,             0
2964          ,             0
2967          ,             0
2970          ,             0
2973          ,             0
2976          ,             0
2979          ,             0
2982          ,             0
2985          ,             0
2988          ,             0
2991          ,             0
2994          ,             0
2997          ,             0
3000          ,             0
3003          ,             0
3006          ,             0
3009          ,             0
3012          ,             0
3015          ,             0
3018          ,             0
3021          ,             0
3024          ,             0
3027          ,             0
3030          ,             0
3033          ,             0
3036          ,             0
3039          ,             0
3042          ,             0
3045          ,             0
3048          ,             0
3051          ,             0
3054          ,             0
3057          ,             0
3060          ,             0
3063          ,             0
3066          ,             0
3069          ,             0
3072          ,             0
3075          ,             0
3078          ,             0
3081          ,             0
3084          ,             0
3087          ,             0
3090          ,             0
3093          ,             0
3096          ,             0
3099          ,             0
3102          ,             0
3105          ,             0
3108          ,             0
3111          ,             0
3114          ,             0
3117          ,             0
3120          ,             0
3123          ,             0
3126          ,             0
3129          ,             0
3132          ,             0
3135          ,             0
3138          ,             0
3141          ,             0
3144          ,             0
3147          ,             0
3150          ,             0
3153          ,             0
3156          ,             0
3159          ,             0
3162          ,             0
3165          ,             0
3168          ,             0
3171          ,             0
3174          ,             0
3177          ,             0
3180          ,             0
3183          ,             0
3186          ,             0
3189          ,             0
3192          ,             0
3195          ,             0
3198          ,             0
3201          ,             0
3204          ,             0
3207          ,             0
3210          ,             0
3213          ,             0
3216          ,             0
3219          ,             0
3222          ,             0
3225          ,             0
3228          ,             0
3231          ,             0
3234          ,             0
3237          ,             0
3240          ,             0
3243          ,             0
3246          ,             0
3249          ,             0
3252          ,             0
3255          ,             0
3258          ,             0
3261          ,             0
3264          ,             0
3267          ,             0
3270          ,             0
3273          ,             0
3276          ,             0
3279          ,             0
3282          ,             0
3285          ,             0
3288          ,             0
3291          ,             0
3294          ,             0
3297          ,             0
3300          ,             0
3303          ,             0
3306          ,             0
3309          ,             0
3312          ,             0
3315          ,             0
3318          ,             0
3321          ,             0
3324          ,             0
3327          ,             0
3330          ,             0
3333          ,             0
3336          ,             0
3339          ,             0
3342          ,             0
3345          ,             0
3348          ,             0
3351          ,             0
3354          ,             0
3357          ,             0
3360          ,             0
3363          ,             0
3366          ,             0
3369          ,             0
3372          ,             0
3375          ,             0
3378          ,             0
3381          ,             0
3384          ,             0
3387          ,             0
3390          ,             0
3393          ,             0
3396          ,             0
3399          ,             0
3402          ,             0
3405          ,             0
3408          ,             0
3411          ,             0
3414          ,             0
3417          ,             0
3420          ,             0
3423          ,             0
3426          ,             0
3429          ,             0
3432          ,             0
3435          ,             0
3438          ,             0
3441          ,             0
3444          ,             0
3447          ,             0
3450          ,             0
3453          ,             0
3456          ,             0
3459          ,             0
3462          ,             0
3465          ,             0
3468          ,             0
3471          ,             0
3474          ,             0
3477          ,             0
3480          ,             0
3483          ,             0
3486          ,             0
3489          ,             0
3492          ,             0
3495          ,             0
3498          ,             0
3501          ,             0
3504          ,             0
3507          ,             0
3510          ,             0
3513          ,             0
3516          ,             0
3519          ,             0
3522          ,             0
3525          ,             0
3528          ,             0
3531          ,             0
3534          ,             0
3537          ,             0
3540          ,             0
3543          ,             0
3546          ,             0
3549          ,             0
3552          ,             0
3555          ,             0
3558          ,             0
3561          ,             0
3564          ,             0
3567          ,             0
3570          ,             0
3573          ,             0
3576          ,             0
3579          ,             0
3582          ,             0
3585          ,             0
3588          ,             0
3591          ,             0
3594          ,             0
3597          ,             0
3600          ,             0
3603          ,             0
3606          ,             0
3609          ,             0
3612          ,             0
3615          ,             0
3618          ,             0
3621          ,             0
3624          ,             0
3627          ,             0
3630          ,             0
3633          ,             0
3636          ,             0
3639          ,             0
3642          ,             0
3645          ,             0
3648          ,             0
3651          ,             0
3654          ,             0
3657          ,             0
3660          ,             0
3663          ,             0
3666          ,             0
3669          ,             0
3672          ,             0
3675          ,             0
3678          ,             0
3681          ,             0
3684          ,             0
3687          ,             0
3690          ,             0
3693          ,             0
3696          ,             0
3699          ,             0
3702          ,             0
3705          ,             0
3708          ,             0
3711          ,             0
3714          ,             0
3717          ,             0
3720          ,             0
3723          ,             0
3726          ,             0
3729          ,             0
3732          ,             0
3735          ,             0
3738          ,             0
3741          ,             0
3744          ,             0
3747          ,             0
3750          ,             0
3753          ,             0
3756          ,             0
3759          ,             0
3762          ,             0
3765          ,             0
3768          ,             0
3771          ,             0
3774          ,             0
3777          ,             0
3780          ,             0
3783          ,             0
3786          ,             0
3789          ,             0
3792          ,             0
3795          ,             0
3798          ,             0
3801          ,             0
3804          ,             0
3807          ,             0
3810          ,             0
3813          ,             0
3816          ,             0
3819          ,             0
3822          ,             0
3825          ,             0
3828          ,             0
3831          ,             0
3834          ,             0
3837          ,             0
3840          ,             0
3843          ,             0
3846          ,             0
3849          ,             0
3852          ,             0
3855          ,             0
3858          ,             0
3861          ,             0
3864          ,             0
3867          ,             0
3870          ,             0
3873          ,             0
3876          ,             0
3879          ,             0
3882          ,             0
3885          ,             0
3888          ,             0
3891          ,             0
3894          ,             0
3897          ,             0
3900          ,             0
3903          ,             0
3906          ,             0
3909          ,             0
3912          ,             0
3915          ,             0
3918          ,             0
3921          ,             0
3924          ,             0
3927          ,             0
3930          ,             0
3933          ,             0
3936          ,             0
3939          ,             0
3942          ,             0
3945          ,             0
3948          ,             0
3951          ,             0
3954          ,             0
3957          ,             0
3960          ,             0
3963          ,             0
3966          ,             0
3969          ,             0
3972          ,             0
3975          ,             0
3978          ,             0
3981          ,             0
3984          ,             0
3987          ,             0
3990          ,             0
3993          ,             0
3996          ,             0
3999          ,             0
4002          ,             0
4005          ,             0
4008          ,             0
4011          ,             0
4014          ,             0
4017          ,             0
4020          ,             0
4023          ,             0
4026          ,             0
4029          ,             0
4032          ,             0
4035          ,             0
4038          ,             0
4041          ,             0
4044          ,             0
4047          ,             0
4050          ,             0
4053          ,             0
4056          ,             0
4059          ,             0
4062          ,             0
4065          ,             0
4068          ,             0
4071          ,             0
4074          ,             0
4077          ,             0
4080          ,             0
4083          ,             0
4086          ,             0
4089          ,             0
4092          ,             0
4095          ,             0